Wavelength,Absorbance
200,0.002
205,0.004
210,0.008
215,0.012
220,0.02
225,0.03
230,0.04
235,0.05
240,0.06
245,0.08
250,0.1
255,0.12
260,0.14
265,0.16
270,0.18
275,0.2
280,0.22
285,0.24
290,0.25
295,0.26
